BIACET_MCMv32
!Biacetyl (CH3C(O)C(O)CH3) absorption cross sections (1 bar, 298 K)
!phi (CH3CO + CH3CO) = 0.158 for wavelength less than 460 nm
!http://iupac.pole-ether.fr/htdocs/datasheets/pdf/P23_Biacetyl+hv.pdf dated 2011
!
!Cross Secton
!  1) Horowitz, A., R. Meller, and G. K. Moortgat, 
!     The UV-VIS absorption cross sectiono of the a-dicarbonyl compounds:
!     pyruvic acid, biacetyl, and glyoxal. J. Photochem. Photobiol. 
!     A:Chemistry, v.146, pp.19-27, 2001.
!
!Quantum Yield
!
!  1) Christopher N. Plum, Eugenlo Sanhueza, Roger Atkinson, William P. L. Carter and James N. Pitts Jr
!     OH Radical Rate Constants and Photolysis Rates of a-Dicarbonyls
!     Environ. Sci. Technol., Vol. 17, No. 8, 1983, p.480
!  2) Rajakumar, B., Gierczak, T., Flad, J., Ravishankara, A.R., and Burkholder, J.B., J. Photochem
!     Photobiol. A: Chem. 199, 336-344, 2008.
!
!
! Pressure correction based on phi(z=infi) and ph(z=0) values based on
! by solving the below for kq
! phi(z=infi)/ph(z=0) = (0.76/0.16) = 1.0 + kq*Temp(z=0)*Number_Density(z=0)
! Number Density in molecules/cm3
!
!wavelength (nm) sigma phi
Points (the mechanism evaluated with this format)
! With FAC, units are (cm^2/molecule)
FAC=1.0
206.0 1.030E-19 0.158
207.0 9.860E-20 0.158
208.0 9.140E-20 0.158
209.0 7.970E-20 0.158
210.0 6.740E-20 0.158
211.0 5.820E-20 0.158
212.0 5.180E-20 0.158
213.0 4.700E-20 0.158
214.0 4.290E-20 0.158
215.0 3.900E-20 0.158
216.0 3.550E-20 0.158
217.0 3.210E-20 0.158
218.0 2.900E-20 0.158
219.0 2.580E-20 0.158
220.0 2.260E-20 0.158
221.0 1.960E-20 0.158
222.0 1.700E-20 0.158
223.0 1.500E-20 0.158
224.0 1.350E-20 0.158
225.0 1.270E-20 0.158
226.0 1.230E-20 0.158
227.0 1.240E-20 0.158
228.0 1.280E-20 0.158
229.0 1.340E-20 0.158
230.0 1.410E-20 0.158
231.0 1.470E-20 0.158
232.0 1.530E-20 0.158
233.0 1.590E-20 0.158
234.0 1.680E-20 0.158
235.0 1.800E-20 0.158
236.0 1.920E-20 0.158
237.0 2.090E-20 0.158
238.0 2.150E-20 0.158
239.0 2.210E-20 0.158
240.0 2.290E-20 0.158
241.0 2.390E-20 0.158
242.0 2.540E-20 0.158
243.0 2.690E-20 0.158
244.0 2.800E-20 0.158
245.0 2.890E-20 0.158
246.0 2.940E-20 0.158
247.0 2.990E-20 0.158
248.0 3.050E-20 0.158
249.0 3.150E-20 0.158
250.0 3.310E-20 0.158
251.0 3.480E-20 0.158
252.0 3.600E-20 0.158
253.0 3.680E-20 0.158
254.0 3.730E-20 0.158
255.0 3.750E-20 0.158
256.0 3.780E-20 0.158
257.0 3.840E-20 0.158
258.0 3.940E-20 0.158
259.0 4.090E-20 0.158
260.0 4.270E-20 0.158
261.0 4.410E-20 0.158
262.0 4.460E-20 0.158
263.0 4.490E-20 0.158
264.0 4.490E-20 0.158
265.0 4.480E-20 0.158
266.0 4.490E-20 0.158
267.0 4.540E-20 0.158
268.0 4.630E-20 0.158
269.0 4.810E-20 0.158
270.0 4.950E-20 0.158
271.0 5.000E-20 0.158
272.0 4.980E-20 0.158
273.0 3.920E-20 0.158
274.0 4.850E-20 0.158
275.0 4.760E-20 0.158
276.0 4.700E-20 0.158
277.0 4.680E-20 0.158
278.0 4.670E-20 0.158
279.0 4.680E-20 0.158
280.0 4.710E-20 0.158
281.0 4.730E-20 0.158
282.0 4.650E-20 0.158
283.0 4.500E-20 0.158
284.0 4.320E-20 0.158
285.0 4.140E-20 0.158
286.0 3.940E-20 0.158
287.0 3.770E-20 0.158
288.0 3.620E-20 0.158
289.0 3.500E-20 0.158
290.0 3.380E-20 0.158
291.0 3.280E-20 0.158
292.0 3.200E-20 0.158
293.0 3.110E-20 0.158
294.0 2.960E-20 0.158
295.0 2.730E-20 0.158
296.0 2.500E-20 0.158
297.0 2.290E-20 0.158
298.0 2.100E-20 0.158
299.0 1.930E-20 0.158
300.0 1.770E-20 0.158
301.0 1.640E-20 0.158
302.0 1.540E-20 0.158
303.0 1.460E-20 0.158
304.0 1.380E-20 0.158
305.0 1.320E-20 0.158
306.0 1.270E-20 0.158
307.0 1.210E-20 0.158
308.0 1.100E-20 0.158
309.0 0.950E-20 0.158
310.0 0.815E-20 0.158
311.0 0.707E-20 0.158
312.0 0.616E-20 0.158
313.0 0.539E-20 0.158
314.0 0.480E-20 0.158
315.0 0.438E-20 0.158
316.0 0.405E-20 0.158
317.0 0.380E-20 0.158
318.0 0.360E-20 0.158
319.0 0.344E-20 0.158
320.0 0.334E-20 0.158
321.0 0.331E-20 0.158
322.0 0.321E-20 0.158
323.0 0.295E-20 0.158
324.0 0.261E-20 0.158
325.0 0.232E-20 0.158
326.0 0.212E-20 0.158
327.0 0.200E-20 0.158
328.0 0.194E-20 0.158
329.0 0.193E-20 0.158
330.0 0.196E-20 0.158
331.0 0.203E-20 0.158
332.0 0.212E-20 0.158
333.0 0.199E-20 0.158
334.0 0.216E-20 0.158
335.0 0.231E-20 0.158
336.0 0.245E-20 0.158
337.0 0.263E-20 0.158
338.0 0.284E-20 0.158
339.0 0.296E-20 0.158
340.0 0.298E-20 0.158
341.0 0.318E-20 0.158
342.0 0.346E-20 0.158
343.0 0.365E-20 0.158
344.0 0.387E-20 0.158
345.0 0.412E-20 0.158
346.0 0.442E-20 0.158
347.0 0.469E-20 0.158
348.0 0.499E-20 0.158
349.0 0.534E-20 0.158
350.0 0.565E-20 0.158
351.0 0.607E-20 0.158
352.0 0.650E-20 0.158
353.0 0.683E-20 0.158
354.0 0.729E-20 0.158
355.0 0.771E-20 0.158
356.0 0.815E-20 0.158
357.0 0.864E-20 0.158
358.0 0.916E-20 0.158
359.0 0.966E-20 0.158
360.0 1.020E-20 0.158
361.0 1.080E-20 0.158
362.0 1.190E-20 0.158
363.0 1.260E-20 0.158
364.0 1.330E-20 0.158
365.0 1.410E-20 0.158
366.0 1.490E-20 0.158
367.0 1.570E-20 0.158
368.0 1.660E-20 0.158
369.0 1.760E-20 0.158
370.0 1.850E-20 0.158
371.0 1.940E-20 0.158
372.0 2.020E-20 0.158
373.0 2.100E-20 0.158
374.0 2.170E-20 0.158
375.0 2.250E-20 0.158
376.0 2.330E-20 0.158
377.0 2.410E-20 0.158
378.0 2.500E-20 0.158
379.0 2.580E-20 0.158
380.0 2.680E-20 0.158
381.0 2.790E-20 0.158
382.0 2.920E-20 0.158
383.0 3.070E-20 0.158
384.0 3.220E-20 0.158
385.0 3.390E-20 0.158
386.0 3.530E-20 0.158
387.0 3.670E-20 0.158
388.0 3.820E-20 0.158
389.0 4.000E-20 0.158
390.0 4.170E-20 0.158
391.0 4.340E-20 0.158
392.0 4.470E-20 0.158
393.0 4.560E-20 0.158
394.0 4.620E-20 0.158
395.0 4.670E-20 0.158
396.0 4.730E-20 0.158
397.0 4.820E-20 0.158
398.0 4.920E-20 0.158
399.0 5.020E-20 0.158
400.0 5.120E-20 0.158
401.0 5.190E-20 0.158
402.0 5.260E-20 0.158
403.0 5.380E-20 0.158
404.0 5.540E-20 0.158
405.0 5.750E-20 0.158
406.0 6.000E-20 0.158
407.0 6.260E-20 0.158
408.0 6.470E-20 0.158
409.0 6.590E-20 0.158
410.0 6.690E-20 0.158
411.0 6.820E-20 0.158
412.0 6.970E-20 0.158
413.0 7.110E-20 0.158
414.0 7.310E-20 0.158
415.0 7.470E-20 0.158
416.0 7.570E-20 0.158
417.0 7.620E-20 0.158
418.0 7.510E-20 0.158
419.0 7.390E-20 0.158
420.0 7.370E-20 0.158
421.0 7.320E-20 0.158
422.0 7.250E-20 0.158
423.0 7.240E-20 0.158
424.0 7.130E-20 0.158
425.0 6.980E-20 0.158
426.0 6.810E-20 0.158
427.0 6.570E-20 0.158
428.0 6.430E-20 0.158
429.0 6.340E-20 0.158
430.0 6.310E-20 0.158
431.0 6.400E-20 0.158
432.0 6.630E-20 0.158
433.0 6.780E-20 0.158
434.0 6.780E-20 0.158
435.0 6.720E-20 0.158
436.0 6.560E-20 0.158
437.0 6.400E-20 0.158
438.0 6.420E-20 0.158
439.0 6.280E-20 0.158
440.0 6.510E-20 0.158
441.0 6.670E-20 0.158
442.0 6.990E-20 0.158
443.0 7.230E-20 0.158
444.0 6.850E-20 0.158
445.0 6.490E-20 0.158
446.0 5.900E-20 0.158
447.0 5.430E-20 0.158
448.0 5.010E-20 0.158
449.0 4.330E-20 0.158
450.0 4.060E-20 0.158
451.0 3.440E-20 0.158
452.0 3.200E-20 0.158
453.0 2.650E-20 0.158
454.0 2.160E-20 0.158
455.0 1.720E-20 0.158
456.0 1.390E-20 0.158
457.0 1.140E-20 0.158
458.0 0.853E-20 0.158
459.0 0.726E-20 0.158
460.0 0.549E-20 0.158
461.0 0.454E-20 0.158
462.0 0.356E-20 0.158
463.0 0.280E-20 0.158
464.0 0.219E-20 0.158
465.0 0.179E-20 0.158
466.0 0.143E-20 0.158
467.0 0.118E-20 0.158
468.0 0.096E-20 0.158
469.0 0.081E-20 0.158
470.0 0.069E-20 0.158
471.0 0.059E-20 0.158
472.0 0.051E-20 0.158
473.0 0.044E-20 0.158
474.0 0.040E-20 0.158
475.0 0.035E-20 0.158
476.0 0.031E-20 0.158
477.0 0.028E-20 0.158
478.0 0.025E-20 0.158
479.0 0.023E-20 0.158
480.0 0.021E-20 0.158
481.0 0.019E-20 0.158
482.0 0.018E-20 0.158
483.0 0.017E-20 0.158
484.0 0.016E-20 0.158
485.0 0.015E-20 0.158
486.0 0.015E-20 0.158
487.0 0.015E-20 0.158
488.0 0.015E-20 0.158
489.0 0.016E-20 0.158
490.0 0.018E-20 0.158
491.0 0.019E-20 0.158
492.0 0.021E-20 0.158
