GLY-07R         
! HCOCHO + HV = HCO. + HCO.                                                      
! Absorption cross sections from Volkamer, R., P. Spietz, J. Burrows, and        
! U. Platt (2005): "High-resolution absorption cross sections of glyoxal         
! in the UV-vis and IR spectral ranges," J. Photochem. Photobiol. A, 172         
! 35-46.  Quantum yields at wavelengths below 350 nm based on the data of        
! Zhu et al (1996) which are consistent with the data of Langford and            
! Moore (1984).  Quantum yields at higher wavelengths assumed to decline         
! expodentially with wavelength at a rate that gives a photolysis rate           
! relative to NO2 consistent with the data of Klotz et al (2000).                
!                                                                                
Points (the mechanism evaluated with this format)                                
! With FAC, units are (cm^2/molecule)                                            
FAC=1.0                                                                          
289.0 3.800E-20 0.3250
290.0 3.734E-20 0.3260
291.0 3.643E-20 0.3270
292.0 3.654E-20 0.3290
293.0 3.681E-20 0.3300
294.0 3.729E-20 0.3310
295.0 3.809E-20 0.3330
296.0 3.824E-20 0.3340
297.0 3.922E-20 0.3350
298.0 4.073E-20 0.3370
299.0 4.123E-20 0.3380
300.0 4.045E-20 0.3390
301.0 3.905E-20 0.3410
302.0 3.779E-20 0.3420
303.0 3.567E-20 0.3430
304.0 3.350E-20 0.3450
305.0 3.242E-20 0.3460
306.0 3.223E-20 0.3470
307.0 3.200E-20 0.3490
308.0 3.146E-20 0.3500
309.0 3.123E-20 0.3590
310.0 3.100E-20 0.3690
311.0 3.222E-20 0.3780
312.0 3.343E-20 0.3870
313.0 3.390E-20 0.3970
314.0 3.233E-20 0.4060
315.0 2.805E-20 0.4150
316.0 2.646E-20 0.4240
317.0 2.460E-20 0.4340
318.0 2.214E-20 0.4430
319.0 1.927E-20 0.4520
320.0 1.854E-20 0.4620
321.0 1.885E-20 0.4710
322.0 1.766E-20 0.4800
323.0 1.723E-20 0.4900
324.0 1.677E-20 0.4990
325.0 1.603E-20 0.5080
326.0 1.606E-20 0.5170
327.0 1.695E-20 0.5270
328.0 1.937E-20 0.5360
329.0 1.857E-20 0.5450
330.0 1.689E-20 0.5550
331.0 1.128E-20 0.5640
332.0 1.048E-20 0.5730
333.0 9.660E-21 0.5830
334.0 9.190E-21 0.5920
335.0 7.370E-21 0.6010
336.0 6.300E-21 0.6110
337.0 5.890E-21 0.6200
338.0 6.470E-21 0.6290
339.0 5.850E-21 0.6380
340.0 5.530E-21 0.6480
341.0 5.630E-21 0.6570
342.0 5.100E-21 0.6660
343.0 4.990E-21 0.6760
344.0 6.490E-21 0.6850
345.0 6.240E-21 0.6940
346.0 7.330E-21 0.7040
347.0 6.310E-21 0.7130
348.0 6.040E-21 0.7220
349.0 4.150E-21 0.7310
350.0 3.910E-21 0.7410
351.0 3.950E-21 0.7500
352.0 4.230E-21 0.7150
353.0 4.150E-21 0.6810
354.0 4.030E-21 0.6490
355.0 4.220E-21 0.6190
356.0 4.430E-21 0.5890
357.0 4.310E-21 0.5620
358.0 4.710E-21 0.5350
359.0 5.030E-21 0.5100
360.0 5.460E-21 0.4860
361.0 6.270E-21 0.4630
362.0 7.060E-21 0.4420
363.0 6.390E-21 0.4210
364.0 6.800E-21 0.4010
365.0 6.650E-21 0.3820
366.0 7.430E-21 0.3640
367.0 8.600E-21 0.3470
368.0 1.012E-20 0.3310
369.0 1.063E-20 0.3150
370.0 1.139E-20 0.3000
371.0 1.185E-20 0.2860
372.0 1.141E-20 0.2730
373.0 1.212E-20 0.2600
374.0 1.352E-20 0.2480
375.0 1.332E-20 0.2360
376.0 1.377E-20 0.2250
377.0 1.467E-20 0.2140
378.0 1.605E-20 0.2040
379.0 1.534E-20 0.1950
380.0 1.934E-20 0.1860
381.0 2.455E-20 0.1770
382.0 2.019E-20 0.1690
383.0 2.069E-20 0.1610
384.0 1.939E-20 0.1530
385.0 1.893E-20 0.1460
386.0 1.835E-20 0.1390
387.0 2.287E-20 0.1320
388.0 3.000E-20 0.1260
389.0 3.206E-20 0.1200
390.0 3.483E-20 0.1150
391.0 3.922E-20 0.1090
392.0 3.801E-20 0.1040
393.0 2.852E-20 0.0990
394.0 3.147E-20 0.0950
395.0 3.855E-20 0.0900
396.0 3.679E-20 0.0860
397.0 3.361E-20 0.0820
398.0 4.323E-20 0.0780
399.0 4.345E-20 0.0740
400.0 3.873E-20 0.0710
401.0 4.455E-20 0.0670
402.0 5.843E-20 0.0640
403.0 7.159E-20 0.0610
404.0 6.237E-20 0.0580
405.0 4.491E-20 0.0560
406.0 4.482E-20 0.0530
407.0 4.066E-20 0.0510
408.0 3.444E-20 0.0480
409.0 4.008E-20 0.0460
410.0 5.661E-20 0.0440
411.0 7.221E-20 0.0420
412.0 7.406E-20 0.0400
413.0 1.075E-19 0.0380
414.0 1.012E-19 0.0360
415.0 1.019E-19 0.0340
416.0 6.073E-20 0.0330
417.0 6.829E-20 0.0310
418.0 7.873E-20 0.0300
419.0 9.134E-20 0.0280
420.0 5.602E-20 0.0270
421.0 7.188E-20 0.0260
422.0 6.990E-20 0.0250
423.0 1.305E-19 0.0230
424.0 8.239E-20 0.0220
425.0 1.045E-19 0.0210
426.0 1.641E-19 0.0200
427.0 1.610E-19 0.0190
428.0 2.142E-19 0.0180
429.0 6.499E-20 0.0180
430.0 7.027E-20 0.0170
431.0 6.518E-20 0.0160
432.0 6.082E-20 0.0150
433.0 5.657E-20 0.0140
434.0 6.809E-20 0.0140
435.0 7.660E-20 0.0130
436.0 1.319E-19 0.0130
437.0 9.185E-20 0.0120
438.0 1.382E-19 0.0110
439.0 1.214E-19 0.0110
440.0 2.594E-19 0.0100
441.0 1.312E-19 0.0100
442.0 9.013E-20 0.0090
443.0 1.112E-19 0.0090
444.0 1.346E-19 0.0090
445.0 1.511E-19 0.0080
446.0 7.818E-20 0.0080
447.0 3.730E-20 0.0070
448.0 4.144E-20 0.0070
449.0 5.527E-20 0.0070
450.0 8.682E-20 0.0060
451.0 1.382E-19 0.0060
452.0 1.595E-19 0.0060
453.0 3.037E-19 0.0060
454.0 2.690E-19 0.0050
455.0 5.199E-19 0.0050
456.0 1.567E-19 0.0050
457.0 2.661E-20 0.0050
458.0 2.201E-20 0.0040
459.0 9.020E-21 0.0040
460.0 1.202E-20 0.0040
461.0 8.830E-21 0.0040
462.0 5.880E-21 0.0040
463.0 3.220E-21 0.0000
